Frequency (Thz)	Wavelength(nm)	n	k
75.000000	4000.000000	4.024980	0.000000e+00
76.691700	3911.766202	4.026120	0.000000e+00
78.383500	3827.336110	4.027260	0.000000e+00
80.075200	3746.478310	4.028440	0.000000e+00
81.766900	3668.966293	4.029650	0.000000e+00
83.458600	3594.596602	4.030860	0.000000e+00
85.150400	3523.177812	4.032140	0.000000e+00
86.842100	3454.545664	4.033420	0.000000e+00
88.533800	3388.536356	4.034720	0.000000e+00
90.225600	3324.998670	4.036090	0.000000e+00
91.917300	3263.803441	4.037460	0.000000e+00
93.609000	3204.820049	4.038830	0.000000e+00
95.300800	3147.927405	4.040840	0.000000e+00
96.992500	3093.022656	4.042890	0.000000e+00
98.684200	3040.000324	4.043730	0.000000e+00
100.376000	2988.762254	4.044840	0.000000e+00
102.068000	2939.216993	4.046650	0.000000e+00
103.759000	2891.315452	4.048290	0.000000e+00
105.451000	2844.923234	4.049830	0.000000e+00
107.143000	2799.996267	4.051110	0.000000e+00
108.835000	2756.466210	4.052410	0.000000e+00
110.526000	2714.293469	4.054160	0.000000e+00
112.218000	2673.367909	4.056430	0.000000e+00
113.910000	2633.658151	4.061550	0.000000e+00
115.602000	2595.110811	4.067190	0.000000e+00
117.293000	2557.697390	4.062540	0.000000e+00
118.985000	2521.326218	4.068440	0.000000e+00
120.677000	2485.974958	4.072910	0.000000e+00
122.368000	2451.621339	4.074940	0.000000e+00
124.060000	2418.184749	4.076980	0.000000e+00
125.752000	2385.647942	4.079080	0.000000e+00
127.444000	2353.975079	4.081260	0.000000e+00
129.135000	2323.150192	4.083440	0.000000e+00
130.827000	2293.104634	4.085570	0.000000e+00
132.519000	2263.826319	4.087570	0.000000e+00
134.211000	2235.286228	4.089570	0.000000e+00
135.902000	2207.473032	4.091570	0.000000e+00
137.594000	2180.327631	4.094450	0.000000e+00
139.286000	2153.841736	4.097580	0.000000e+00
140.977000	2128.006696	4.100710	0.000000e+00
142.669000	2102.769347	4.103840	0.000000e+00
144.361000	2078.123593	4.108630	1.733690e-05
146.053000	2054.048873	4.113520	3.559580e-05
147.744000	2030.539311	4.118400	5.381150e-05
149.436000	2007.548382	4.123270	7.198420e-05
151.128000	1985.072257	4.128140	9.011400e-05
152.820000	1963.093836	4.133000	1.082010e-04
154.511000	1941.609335	4.137850	1.262460e-04
156.203000	1920.577710	4.142700	1.442490e-04
157.895000	1899.996833	4.147550	1.622100e-04
159.586000	1879.864148	4.152390	1.801300e-04
161.278000	1860.142115	4.157220	1.980080e-04
162.970000	1840.829601	4.162050	2.158440e-04
164.662000	1821.913981	4.166870	2.336400e-04
166.353000	1803.393987	4.171680	2.513950e-04
168.045000	1785.236097	4.176500	2.691090e-04
169.737000	1767.440216	4.179770	2.976460e-04
171.429000	1749.995625	4.178910	3.554260e-04
173.120000	1732.902033	4.178050	4.132310e-04
174.812000	1716.129328	4.177190	4.710590e-04
176.504000	1699.678194	4.176330	5.289100e-04
178.195000	1683.548921	4.175470	5.867860e-04
179.887000	1667.713620	4.174610	6.446850e-04
181.579000	1652.173434	4.173750	7.026090e-04
183.271000	1636.920189	4.172890	7.605560e-04
184.962000	1621.954780	4.185050	1.378910e-03
186.654000	1607.251921	4.203200	2.252410e-03
188.346000	1592.813227	4.221280	3.118460e-03
190.038000	1578.631642	4.239290	3.977190e-03
191.729000	1564.708521	4.257220	4.828750e-03
193.421000	1551.020830	4.275000	5.688760e-03
195.113000	1537.570536	4.275670	1.052260e-02
196.805000	1524.351515	4.276340	1.535490e-02
198.496000	1511.365468	4.277010	2.018570e-02
200.188000	1498.591324	4.277700	2.501490e-02
201.880000	1486.031306	4.278380	2.984250e-02
203.571000	1473.687313	4.279080	3.466850e-02
205.263000	1461.539586	4.279770	3.949300e-02
206.955000	1449.590491	4.280480	4.431570e-02
208.647000	1437.835195	4.281180	4.913690e-02
210.338000	1426.275804	4.281900	5.395640e-02
212.030000	1414.894119	4.282620	5.877420e-02
213.722000	1403.692647	4.283340	6.359030e-02
215.414000	1392.667143	4.284070	6.840470e-02
217.105000	1381.819857	4.284800	7.321740e-02
218.797000	1371.133974	4.287060	7.483070e-02
220.489000	1360.612094	4.289860	7.528120e-02
222.180000	1350.256549	4.292670	7.573110e-02
223.872000	1340.051458	4.295470	7.618040e-02
225.564000	1329.999468	4.298270	7.662920e-02
227.256000	1320.097159	4.301070	7.707740e-02
228.947000	1310.346936	4.303860	7.752510e-02
230.639000	1300.734048	4.306660	7.797220e-02
232.331000	1291.261175	4.309450	7.841880e-02
234.023000	1281.925281	4.312240	7.886480e-02
235.714000	1272.728815	4.315030	7.931030e-02
237.406000	1263.658037	4.317820	7.975520e-02
239.098000	1254.715640	4.320610	8.019960e-02
240.789000	1245.904090	4.323390	8.064350e-02
242.481000	1237.210338	4.326780	8.155870e-02
244.173000	1228.637073	4.330980	8.311910e-02
245.865000	1220.181807	4.335190	8.467670e-02
247.556000	1211.847016	4.339390	8.623120e-02
249.248000	1203.620490	4.343590	8.778290e-02
250.940000	1195.504902	4.347790	8.933160e-02
252.632000	1187.498021	4.351980	9.087740e-02
254.323000	1179.602317	4.356170	9.242030e-02
256.015000	1171.806339	4.360350	9.396030e-02
257.707000	1164.112733	4.364530	9.549750e-02
259.398000	1156.523952	4.368710	9.703170e-02
261.090000	1149.029070	4.372880	9.856320e-02
262.782000	1141.630705	4.377050	1.000920e-01
264.474000	1134.327004	4.381220	1.016180e-01
266.165000	1127.120395	4.385230	1.031300e-01
267.857000	1120.000597	4.387680	1.045380e-01
269.549000	1112.970184	4.390130	1.059440e-01
271.241000	1106.027481	4.392580	1.073490e-01
272.932000	1099.174886	4.395030	1.087520e-01
274.624000	1092.402703	4.397480	1.101540e-01
276.316000	1085.713459	4.399930	1.115540e-01
278.008000	1079.105637	4.402370	1.129530e-01
279.699000	1072.581597	4.404820	1.143500e-01
281.391000	1066.132179	4.407260	1.157450e-01
283.083000	1059.759858	4.409710	1.171390e-01
284.774000	1053.466960	4.412150	1.185320e-01
286.466000	1047.244699	4.414590	1.199230e-01
288.158000	1041.095510	4.417030	1.213120e-01
289.850000	1035.018113	4.419470	1.227000e-01
291.541000	1029.014787	4.424140	1.254560e-01
293.233000	1023.077212	4.429430	1.285830e-01
294.925000	1017.207765	4.434710	1.317020e-01
296.617000	1011.405280	4.439980	1.348140e-01
298.308000	1005.671990	4.445250	1.379190e-01
300.000000	1000.000000	4.450520	1.410160e-01
301.692000	994.391631	4.455780	1.441070e-01
303.383000	988.849079	4.461030	1.471900e-01
305.075000	983.364746	4.466290	1.502660e-01
306.767000	977.940913	4.471540	1.533350e-01
308.459000	972.576582	4.476780	1.563970e-01
310.150000	967.273900	4.482020	1.594520e-01
311.842000	962.025641	4.487260	1.625000e-01
313.534000	956.834028	4.492490	1.655410e-01
315.226000	951.698147	4.497380	1.678470e-01
316.917000	946.620093	4.501950	1.694760e-01
318.609000	941.592987	4.506520	1.711010e-01
320.301000	936.618993	4.511090	1.727240e-01
321.992000	931.700166	4.515650	1.743430e-01
323.684000	926.829871	4.520210	1.759590e-01
325.376000	922.010228	4.524760	1.775720e-01
327.068000	917.240452	4.529310	1.791820e-01
328.759000	912.522547	4.533860	1.807890e-01
330.451000	907.850181	4.538400	1.823930e-01
332.143000	903.225418	4.542940	1.839940e-01
333.835000	898.647535	4.547470	1.855910e-01
335.526000	894.118489	4.552000	1.871860e-01
337.218000	889.632226	4.556520	1.887780e-01
338.910000	885.190759	4.561500	1.917820e-01
340.602000	880.793419	4.568000	1.994820e-01
342.293000	876.442112	4.574500	2.071610e-01
343.985000	872.131052	4.581000	2.148170e-01
345.677000	867.862195	4.587500	2.224520e-01
347.368000	863.637410	4.594010	2.300650e-01
349.060000	859.451097	4.600520	2.376560e-01
350.752000	855.305173	4.607030	2.452260e-01
352.444000	851.199056	4.613540	2.527740e-01
354.135000	847.134567	4.620060	2.603010e-01
355.827000	843.106341	4.626580	2.678060e-01
357.519000	839.116243	4.633100	2.752910e-01
359.211000	835.163734	4.639620	2.827540e-01
360.902000	831.250589	4.646140	2.901960e-01
362.594000	827.371661	4.652660	2.976170e-01
364.286000	823.528766	4.658150	3.009970e-01
365.977000	819.723644	4.663570	3.041510e-01
367.669000	815.951304	4.668980	3.072980e-01
369.361000	812.213526	4.674400	3.104380e-01
371.053000	808.509836	4.679800	3.135710e-01
372.744000	804.841929	4.686070	3.167660e-01
374.436000	801.205012	4.695340	3.201900e-01
376.128000	797.600817	4.704590	3.236010e-01
377.820000	794.028903	4.713830	3.270010e-01
379.511000	790.490921	4.723040	3.303880e-01
381.203000	786.982264	4.732250	3.337630e-01
382.895000	783.504616	4.741430	3.371260e-01
384.586000	780.059597	4.750600	3.404770e-01
386.278000	776.642729	4.759750	3.438170e-01
387.970000	773.255664	4.769010	3.471620e-01
389.662000	769.898014	4.778300	3.505060e-01
391.353000	766.571356	4.787590	3.538370e-01
393.045000	763.271381	4.796850	3.571570e-01
394.737000	759.999696	4.806100	3.604650e-01
396.429000	756.755939	4.815330	3.637620e-01
398.120000	753.541646	4.824810	3.680550e-01
399.812000	750.352666	4.834300	3.724110e-01
401.504000	747.190563	4.843760	3.767520e-01
403.195000	744.056846	4.853220	3.810760e-01
404.887000	740.947474	4.862650	3.853850e-01
406.579000	737.863982	4.872070	3.896790e-01
408.271000	734.806048	4.881480	3.939570e-01
409.962000	731.775140	4.890870	3.982200e-01
411.654000	728.767363	4.900910	4.027820e-01
413.346000	725.784210	4.912190	4.079180e-01
415.038000	722.825380	4.923450	4.130310e-01
416.729000	719.892304	4.934690	4.181240e-01
418.421000	716.981222	4.945910	4.231950e-01
420.113000	714.093589	4.957100	4.282450e-01
421.805000	711.229122	4.969090	4.354080e-01
423.496000	708.389217	4.981490	4.436750e-01
425.188000	705.570242	4.993870	4.519030e-01
426.880000	702.773613	5.006230	4.600920e-01
428.571000	700.000700	5.018570	4.682430e-01
430.263000	697.247962	5.030890	4.763560e-01
431.955000	694.516790	5.043190	4.844310e-01
433.647000	691.806931	5.055460	4.924690e-01
435.338000	689.119718	5.067880	5.003860e-01
437.030000	686.451731	5.082810	5.069240e-01
438.722000	683.804323	5.097700	5.134280e-01
440.414000	681.177256	5.112550	5.198980e-01
442.105000	678.571832	5.127370	5.263340e-01
443.797000	675.984741	5.142140	5.327380e-01
445.489000	673.417301	5.158420	5.432080e-01
447.180000	670.870790	5.177760	5.618450e-01
448.872000	668.341977	5.197080	5.803460e-01
450.564000	665.832157	5.216380	5.987120e-01
452.256000	663.341117	5.235650	6.169460e-01
453.947000	660.870102	5.254910	6.350480e-01
455.639000	658.415983	5.274130	6.530220e-01
457.331000	655.980023	5.293340	6.708680e-01
459.023000	653.562022	5.312520	6.885880e-01
460.714000	651.163195	5.331670	7.061840e-01
462.406000	648.780509	5.350790	7.236580e-01
464.098000	646.415197	5.369890	7.410110e-01
465.789000	644.068452	5.388960	7.582460e-01
467.481000	641.737311	5.408000	7.753630e-01
469.173000	639.422985	5.427010	7.923640e-01
470.865000	637.125291	5.445990	8.092510e-01
472.556000	634.845394	5.464930	8.260250e-01
474.248000	632.580422	5.483850	8.426890e-01
475.940000	630.331554	5.502740	8.592420e-01
477.632000	628.098620	5.521590	8.756880e-01
479.323000	625.882755	5.540410	8.920270e-01
481.015000	623.681174	5.559200	9.082600e-01
482.707000	621.495027	5.577950	9.243900e-01
484.398000	619.325431	5.597620	9.510510e-01
486.090000	617.169660	5.618470	9.897600e-01
487.782000	615.028845	5.639460	1.028160e+00
489.474000	612.902830	5.660570	1.066250e+00
491.165000	610.792707	5.681790	1.104030e+00
492.857000	608.695829	5.703130	1.141520e+00
494.549000	606.613298	5.710080	1.193750e+00
496.241000	604.544969	5.713240	1.250220e+00
497.932000	602.491907	5.716910	1.306520e+00
499.624000	600.451540	5.721090	1.362630e+00
501.316000	598.424946	5.725760	1.418530e+00
503.008000	596.411985	5.730920	1.474210e+00
504.699000	594.413700	5.736560	1.529670e+00
506.391000	592.427591	5.742660	1.584890e+00
508.083000	590.454709	5.741690	1.638910e+00
509.774000	588.496079	5.706780	1.688730e+00
511.466000	586.549253	5.672250	1.739060e+00
513.158000	584.615265	5.638110	1.789880e+00
514.850000	582.693989	5.604390	1.841180e+00
516.541000	580.786424	5.571090	1.892960e+00
518.233000	578.890190	5.538920	1.926910e+00
519.925000	577.006299	5.507550	1.941420e+00
521.617000	575.134629	5.476100	1.956110e+00
523.308000	573.276159	5.444580	1.971000e+00
525.000000	571.428571	5.412990	1.986090e+00
526.692000	569.592855	5.381330	2.001380e+00
528.383000	567.769970	5.349600	2.016880e+00
530.075000	565.957648	5.317810	2.032590e+00
531.767000	564.156858	5.285960	2.048510e+00
533.459000	562.367492	5.269510	2.062490e+00
535.150000	560.590489	5.254660	2.076340e+00
536.842000	558.823639	5.239840	2.090250e+00
538.534000	557.067892	5.225030	2.104230e+00
540.226000	555.323143	5.210250	2.118280e+00
541.917000	553.590310	5.195240	2.133700e+00
543.609000	551.867243	5.179020	2.155550e+00
545.301000	550.154869	5.162880	2.177510e+00
546.992000	548.454091	5.146830	2.199570e+00
548.684000	546.762800	5.130870	2.221730e+00
550.376000	545.081908	5.115000	2.243990e+00
552.068000	543.411319	5.099220	2.266350e+00
553.759000	541.751917	5.083530	2.288800e+00
555.451000	540.101647	5.067940	2.311350e+00
557.143000	538.461400	5.042640	2.331520e+00
558.835000	536.831086	5.011290	2.350370e+00
560.526000	535.211569	4.979920	2.369460e+00
562.218000	533.600845	4.948550	2.388790e+00
563.910000	531.999787	4.917180	2.408380e+00
565.602000	530.408308	4.885810	2.428210e+00
567.293000	528.827255	4.854640	2.432760e+00
568.985000	527.254673	4.823350	2.435890e+00
570.677000	525.691416	4.791920	2.439140e+00
572.368000	524.138317	4.760350	2.442510e+00
574.060000	522.593457	4.728630	2.446000e+00
575.752000	521.057678	4.696760	2.449610e+00
577.444000	519.530898	4.664750	2.453350e+00
579.135000	518.013935	4.632580	2.457210e+00
580.827000	516.504915	4.603370	2.458430e+00
582.519000	515.004661	4.581280	2.453190e+00
584.211000	513.513097	4.559080	2.447960e+00
585.902000	512.031022	4.536790	2.442730e+00
587.594000	510.556609	4.514390	2.437510e+00
589.286000	509.090662	4.491890	2.432280e+00
590.977000	507.633969	4.472830	2.426750e+00
592.669000	506.184734	4.456480	2.420960e+00
594.361000	504.743750	4.440060	2.415150e+00
596.053000	503.310947	4.423590	2.409340e+00
597.744000	501.887095	4.407050	2.403510e+00
599.436000	500.470442	4.390460	2.397680e+00
601.128000	499.061764	4.373800	2.391830e+00
602.820000	497.660993	4.357090	2.385980e+00
604.511000	496.268885	4.340310	2.380110e+00
606.203000	494.883727	4.327540	2.374870e+00
607.895000	493.506280	4.314800	2.369630e+00
609.586000	492.137287	4.302040	2.364380e+00
611.278000	490.775065	4.289230	2.359120e+00
612.970000	489.420363	4.276390	2.353850e+00
614.662000	488.073120	4.264260	2.348740e+00
616.353000	486.734063	4.254140	2.344080e+00
618.045000	485.401548	4.244000	2.339410e+00
619.737000	484.076310	4.233830	2.334730e+00
621.429000	482.758288	4.223640	2.330050e+00
623.120000	481.448196	4.213430	2.325350e+00
624.812000	480.144427	4.203190	2.320650e+00
626.504000	478.847701	4.192920	2.315930e+00
628.195000	477.558720	4.182630	2.311210e+00
629.887000	476.275903	4.173970	2.306150e+00
631.579000	474.999960	4.165860	2.300980e+00
633.271000	473.730836	4.157730	2.295790e+00
634.962000	472.469219	4.149590	2.290600e+00
636.654000	471.213563	4.141430	2.285390e+00
638.346000	469.964565	4.133260	2.280170e+00
640.038000	468.722170	4.127250	2.275500e+00
641.729000	467.487055	4.121310	2.270850e+00
643.421000	466.257707	4.115360	2.266180e+00
645.113000	465.034808	4.109400	2.261510e+00
646.805000	463.818307	4.103430	2.256830e+00
648.496000	462.608867	4.097450	2.252140e+00
650.188000	461.405009	4.091460	2.247440e+00
651.880000	460.207400	4.085470	2.242730e+00
653.571000	459.016694	4.080230	2.238530e+00
655.263000	457.831436	4.076040	2.235040e+00
656.955000	456.652282	4.071840	2.231540e+00
658.647000	455.479187	4.067640	2.228040e+00
660.338000	454.312791	4.063440	2.224540e+00
662.030000	453.151670	4.059230	2.221030e+00
663.722000	451.996468	4.056100	2.216720e+00
665.414000	450.847142	4.053420	2.212080e+00
667.105000	449.704319	4.050740	2.207430e+00
668.797000	448.566605	4.048060	2.202770e+00
670.489000	447.434634	4.045380	2.198110e+00
672.180000	446.309024	4.042700	2.193440e+00
673.872000	445.188404	4.040020	2.188760e+00
675.564000	444.073396	4.037340	2.184080e+00
677.256000	442.963960	4.034890	2.179550e+00
678.947000	441.860705	4.034000	2.176030e+00
680.639000	440.762284	4.033120	2.172520e+00
682.331000	439.669310	4.032240	2.169000e+00
684.023000	438.581744	4.031360	2.165480e+00
685.714000	437.500182	4.030490	2.161950e+00
687.406000	436.423307	4.030360	2.158970e+00
689.098000	435.351721	4.031160	2.156650e+00
690.789000	434.286012	4.031970	2.154340e+00
692.481000	433.224883	4.032780	2.152020e+00
694.173000	432.168926	4.033590	2.149710e+00
695.865000	431.118105	4.034400	2.147390e+00
697.556000	430.072998	4.035210	2.145080e+00
699.248000	429.032332	4.036030	2.142760e+00
700.940000	427.996690	4.036840	2.140450e+00
702.632000	426.966036	4.039120	2.140000e+00
704.323000	425.940939	4.041750	2.140000e+00
706.015000	424.920150	4.044390	2.140000e+00
707.707000	423.904243	4.047020	2.140000e+00
709.398000	422.893778	4.049650	2.140000e+00
711.090000	421.887525	4.052370	2.140120e+00
712.782000	420.886049	4.055890	2.141290e+00
714.474000	419.889317	4.059410	2.142470e+00
716.165000	418.897880	4.062930	2.143640e+00
717.857000	417.910531	4.066440	2.144810e+00
719.549000	416.927826	4.069950	2.145980e+00
721.241000	415.949731	4.073460	2.147150e+00
722.932000	414.976789	4.076970	2.148320e+00
724.624000	414.007816	4.080470	2.149490e+00
726.316000	413.043359	4.084440	2.150980e+00
728.008000	412.083384	4.088770	2.152710e+00
729.699000	411.128424	4.093100	2.154440e+00
731.391000	410.177320	4.097420	2.156170e+00
733.083000	409.230606	4.101740	2.157890e+00
734.774000	408.288807	4.106050	2.159620e+00
736.466000	407.350781	4.110130	2.165570e+00
738.158000	406.417054	4.114140	2.172690e+00
739.850000	405.487599	4.118150	2.179800e+00
741.541000	404.562930	4.122160	2.186890e+00
743.233000	403.641927	4.126170	2.193970e+00
744.925000	402.725107	4.130190	2.201040e+00
746.617000	401.812442	4.134200	2.208090e+00
748.308000	400.904440	4.138220	2.215130e+00
750.000000	400.000000	4.141640	2.222150e+00
